File: 2021pipeline/data_train_fsed.csv
,Capacity dV CCCT,Charge time dV CCCT,Energy dV CCCT,Entropy dV CCCT Shannon,Frechet Distance CC curve,Hausdorff Distance CC curve,Lagged Cumulated Discharge Capacity,Lagged Cumulated Discharge Energy,Lagged Pseudo Resistace,Lagged cycle time,Mean DV CCCV,Slope CCCV-CCCT,Group,Discharge_Q
0,578.29,0.0049537,578.29,8.66534,0.846921,6.41894,0.0,0.0,0.0,0.0,0.482614,18.2203,8001.0,739.111
1,569.006,0.0049074,569.006,8.66534,0.846906,6.41326,739.111,2315.7,0.0219123,0.0823495,0.480303,18.3511,8001.0,730.193
2,564.408,0.00488425,564.408,8.69,0.846898,6.42937,1469.3,4602.52,0.0183037,0.163667,0.478651,18.4378,8001.0,725.747
3,561.234,0.00486111,561.234,8.64024,0.84689,6.43804,2195.05,6876.37,0.0176018,0.244478,0.477485,18.4843,8001.0,722.843
4,557.071,0.00484953,557.071,8.64386,0.846886,6.43368,2917.89,9141.8,0.018745,0.324957,0.476238,18.6273,8001.0,718.367
5,553.534,0.00481481,553.534,8.62571,0.846874,6.40925,3636.26,11394.5,0.018044,0.404914,0.476186,18.6948,8001.0,714.979
6,550.424,0.00479166,550.424,8.60733,0.846866,6.37983,4351.24,13637.3,0.017542,0.484497,0.476452,18.8099,8001.0,711.62
7,546.539,0.00478009,546.539,8.62571,0.846862,6.39388,5062.86,15870.2,0.0176422,0.563708,0.474275,18.8051,8001.0,709.532
8,543.025,0.00475694,543.025,8.62205,0.846853,6.3723,5772.39,18097.3,0.0190453,0.6426,0.47481,18.8964,8001.0,705.848
9,539.725,0.00475694,539.725,8.62205,0.846853,6.39484,6478.24,20313.9,0.018243,0.721056,0.471789,18.9385,8001.0,702.545
10,536.839,0.00475694,536.839,8.63662,0.846853,6.38565,7180.78,22520.8,0.018143,0.799139,0.473491,18.9385,8001.0,699.416
11,533.748,0.00474541,533.748,8.61471,0.846849,6.40595,7880.2,24718.6,0.0185448,0.876869,0.470578,18.9507,8001.0,696.284
12,531.074,0.00474541,531.074,8.61102,0.846849,6.39063,8576.48,26907.3,0.018745,0.954242,0.471049,19.0097,8001.0,693.267
13,527.984,0.00474541,527.984,8.59991,0.846849,6.40931,9269.75,29087.1,0.018845,1.03127,0.469226,18.9759,8001.0,690.369
14,525.312,0.00474543,525.312,8.62205,0.846849,6.41039,9960.12,31258.4,0.0185448,1.10796,0.468919,18.959,8001.0,687.619
15,520.234,0.00478009,520.234,8.62571,0.846862,6.45391,10647.7,33421.5,0.0195473,1.18433,0.466681,18.8554,8001.0,681.826
16,514.248,0.00481482,514.248,8.62936,0.846874,6.484,11329.6,35568.1,0.0195615,1.26004,0.465623,18.7114,8001.0,675.887
17,511.41,0.00484954,511.41,8.633,0.846886,6.5042,12005.5,37697,0.0212663,1.33505,0.464678,18.652,8001.0,672.743
18,508.326,0.00486111,508.326,8.66178,0.84689,6.53325,12678.2,39816.8,0.0218218,1.40971,0.46347,18.5172,8001.0,669.732
19,505.625,0.00484953,505.625,8.65464,0.846886,6.51978,13347.9,41927.5,0.02147,1.48402,0.463764,18.5282,8001.0,667.418
20,502.989,0.00490741,502.989,8.66534,0.846906,6.5538,14015.3,44030.4,0.020067,1.55803,0.462869,18.4081,8001.0,663.953
21,500.28,0.00491898,500.28,8.65464,0.84691,6.56315,14679.3,46124,0.0227003,1.63167,0.463652,18.4056,8001.0,661.44
22,497.445,0.00494213,497.445,8.65105,0.846917,6.59508,15340.7,48209.1,0.0212973,1.70499,0.461268,18.2224,8001.0,658.232
23,495.149,0.00491898,495.149,8.65821,0.84691,6.5639,15999,50285.6,0.023182,1.77798,0.464043,18.2673,8001.0,656.302
24,492.305,0.00498843,492.305,8.66888,0.846932,6.60882,16655.3,52355.1,0.021979,1.8507,0.462003,18.0536,8001.0,652.781
25,490.013,0.0049537,490.013,8.6865,0.846921,6.56246,17308.1,54416.1,0.0241738,1.92306,0.462897,18.2445,8001.0,651.274
26,487.547,0.00496527,487.547,8.6865,0.846925,6.58972,17959.3,56470.5,0.0220685,1.99519,0.462005,18.1618,8001.0,648.85
27,484.485,0.00506945,484.485,8.72792,0.846959,6.65893,18608.2,58517.2,0.0227708,2.06704,0.461647,17.7895,8001.0,645.022
28,483.022,0.00498842,483.022,8.65821,0.846933,6.59304,19253.2,60555.1,0.0243753,2.13849,0.461992,18.0377,8001.0,644.169
29,480.773,0.00499999,480.773,8.6865,0.846936,6.5977,19897.4,62588.6,0.0228708,2.2098,0.464023,17.996,8001.0,642.089
30,478.323,0.00509259,478.323,8.72792,0.846966,6.65684,20539.5,64614.9,0.023673,2.28086,0.463365,17.7088,8001.0,638.773
31,476.26,0.00502314,476.26,8.6865,0.846944,6.59949,21178.2,66633.7,0.0250763,2.35158,0.463061,17.977,8001.0,637.819
32,473.217,0.00511574,473.217,8.74483,0.846973,6.68708,21816.1,68646.6,0.0242738,2.42213,0.463081,17.582,8001.0,632.203
33,471.542,0.00506944,471.542,8.69,0.846959,6.63092,22448.3,70645.6,0.0272255,2.49215,0.464048,17.75,8001.0,631.744
34,466.611,0.00513888,466.611,8.71081,0.84698,6.69365,23080,72642.1,0.0233155,2.56204,0.464493,17.5263,8001.0,629.52
35,466.413,0.00517361,466.413,8.74483,0.846991,6.68754,23709.5,74632.1,0.0234155,2.63156,0.464295,17.4631,8001.0,625.491
36,465.153,0.00509259,465.153,8.7039,0.846966,6.63794,24335,76612.7,0.0268238,2.70079,0.464566,17.6696,8001.0,625.258
37,463.089,0.00509258,463.089,8.73471,0.846966,6.63395,24960.3,78590.1,0.02391625,2.76994,0.464397,17.6931,8001.0,623.553
38,460.222,0.00517361,460.222,8.73809,0.846991,6.70263,25583.8,80561.4,0.0249188,2.83887,0.46354,17.3703,8001.0,620.477
39,459.02,0.00511574,459.02,8.72792,0.846973,6.65204,26204.3,82525.6,0.0279265,2.90749,0.464023,17.6289,8001.0,619.519
40,456.311,0.00510416,456.311,8.71081,0.84697,6.64386,26823.8,84484.4,0.027589,2.97597,0.464041,17.6923,8001.0,617.608
41,454.245,0.00509258,454.245,8.71081,0.846966,6.62105,27441.4,86435.6,0.0272888,3.04419,0.466524,17.6932,8001.0,615.726
42,451.587,0.00518519,451.587,8.74147,0.846994,6.69339,28057.2,88380.2,0.0273888,3.11218,0.465796,17.3702,8001.0,612.744
43,450.351,0.00509259,450.351,8.70736,0.846966,6.63266,28669.9,90318.5,0.0309972,3.17986,0.464732,17.6931,8001.0,612.35
44,446.853,0.00511574,446.853,8.69697,0.846973,6.63667,29282.2,92251.8,0.0284915,3.24745,0.466786,17.6445,8001.0,608.877
45,441.94,0.00515046,441.94,8.70044,0.846984,6.66634,29891.1,94173.5,0.0298957,3.31462,0.465471,17.4636,8001.0,604.287
46,440.459,0.00511573,440.459,8.73471,0.846973,6.63564,30495.4,96081.8,0.0328808,3.38128,0.468752,17.5741,8001.0,603.207
47,438.031,0.0052662,438.031,8.77149,0.847019,6.73759,31098.6,97984.6,0.031076,3.44777,0.467239,17.0883,8001.0,599.824
48,437.982,0.00516203,437.982,8.75154,0.846987,6.66915,31698.4,99884.1,0.0337535,3.51395,0.466591,17.5254,8001.0,599.862
49,435.716,0.00512731,435.716,8.72451,0.846977,6.64235,32298.3,101778,0.0305455,3.58008,0.46654,17.5736,8001.0,598.159
50,431.406,0.0053125,431.406,8.75154,0.847032,6.77439,32896.5,103666,0.0311475,3.64602,0.466081,17.0075,8001.0,594.28
51,431.808,0.00513888,431.808,8.7211,0.84698,6.6411,33490.7,105549,0.035458,3.71151,0.466926,17.5496,8001.0,594.468
52,429.957,0.00512731,429.957,8.72792,0.846977,6.64861,34085.2,107426,0.0324505,3.777,0.466758,17.5502,8001.0,592.857
53,427.914,0.00516204,427.914,8.72792,0.846987,6.66346,34678.1,109297,0.03215,3.8423,0.466489,17.4401,8001.0,590.425
54,426.463,0.00512731,426.463,8.7039,0.846977,6.65575,35268.5,111163,0.0365607,3.90734,0.466495,17.5735,8001.0,589.447
55,425.027,0.00511573,425.027,8.72792,0.846973,6.62513,35857.9,113022,0.0336533,3.97224,0.468405,17.6133,8001.0,588.117
56,422.203,0.00524306,422.203,8.73809,0.847012,6.72442,36446.1,114876,0.033553,4.03697,0.467308,17.1941,8001.0,585.56
57,422.782,0.00512731,422.782,8.71425,0.846977,6.63925,37031.6,116728,0.0391715,4.10141,0.46737,17.6048,8001.0,585.746
58,420.932,0.00510416,420.932,8.69,0.84697,6.61968,37617.4,118575,0.0343603,4.16587,0.468791,17.6139,8001.0,584.152
59,416.824,0.0052662,416.824,8.74147,0.847019,6.73438,38201.5,120415,0.0347608,4.23014,0.466864,17.1111,8001.0,581.276
60,418.272,0.00512731,418.272,8.72451,0.846977,6.64103,38782.8,122254,0.0405758,4.29406,0.468502,17.5346,8001.0,581.655
61,416.433,0.00510416,416.433,8.71425,0.84697,6.60808,39364.4,124088,0.035563,4.35803,0.468028,17.6766,8001.0,580.033
62,413.396,0.0053125,413.396,8.77149,0.847032,6.75467,39944.5,125915,0.0359635,4.4218,0.46667,16.9547,8001.0,577.634
63,414.392,0.00516203,414.392,8.7039,0.846987,6.62911,40522.1,127749,0.04067225,4.48535,0.467928,17.5176,8001.0,577.589
64,412.955,0.00515045,412.955,8.7039,0.846984,6.67112,41099.7,129574,0.0350575,4.54886,0.466632,17.4637,8001.0,576.417
65,407.628,0.0053125,407.628,8.76155,0.847032,6.75505,41676.1,131394,0.0352578,4.61224,0.467375,16.9773,8001.0,573.098
66,407.628,0.0053125,407.628,8.76155,0.847032,6.75505,42249.2,133213,0.041775,4.6752,0.467375,16.9773,8001.0,573.098
67,409.257,0.00513889,409.257,8.73132,0.84698,6.64573,42822.3,135031,0.041775,4.73816,0.467888,17.4951,8001.0,574.971
68,407.599,0.00512731,407.599,8.69349,0.846977,6.64616,43397.3,136846,0.0257343,4.80124,0.466866,17.5501,8001.0,572.038
69,406.162,0.00512731,406.162,8.7211,0.846977,6.61604,43969.3,138651,0.03606,4.86406,0.469296,17.5969,8001.0,570.437
70,403.495,0.00519676,403.495,8.74819,0.846998,6.68118,44539.8,140448,0.0367622,4.92669,0.468576,17.3238,8001.0,568.268
71,402.873,0.00511573,402.873,8.71425,0.846973,6.63405,45108,142243,0.0422328,4.98907,0.46754,17.5976,8001.0,567.793
72,401.842,0.00511573,401.842,8.69349,0.846973,6.65654,45675.8,144031,0.0377208,5.05137,0.467179,17.5585,8001.0,566.753
73,398.351,0.00519676,398.351,8.73471,0.846998,6.67325,46242.6,145815,0.0380223,5.11355,0.468426,17.3239,8001.0,564.227
74,399.162,0.00510416,399.162,8.71081,0.84697,6.61856,46806.8,147596,0.04494,5.17543,0.468684,17.6061,8001.0,564.318
75,397.729,0.00511573,397.729,8.72451,0.846973,6.63383,47371.1,149372,0.0388245,5.23731,0.4676,17.6211,8001.0,563.046
76,392.806,0.00521991,392.806,8.75822,0.847005,6.67398,47934.2,151142,0.0394253,5.29904,0.466948,17.3238,8001.0,560.014
77,395.476,0.00513888,395.476,8.7211,0.84698,6.6412,48494.2,152911,0.0460428,5.36038,0.467968,17.6197,8001.0,560.65
78,573.327,0.005,573.327,8.67243,0.846936,6.49012,0.0,0.0,0.0,0.0,0.479533,17.9959,8002.0,734.819
79,564.821,0.0049074,564.821,8.67948,0.846906,6.41378,734.819,2303.14,0.0259155,0.0817926,0.47882,18.3591,8002.0,726.622
80,560.418,0.00488425,560.418,8.65821,0.846898,6.40392,1461.44,4579.82,0.0203043,0.162617,0.479579,18.5114,8002.0,722.157
81,557.619,0.00483796,557.619,8.64746,0.846882,6.40122,2183.6,6843.23,0.018801,0.242933,0.478445,18.5889,8002.0,719.216
82,552.922,0.00482638,552.922,8.65464,0.846878,6.39318,2902.81,9098.23,0.0197655,0.322932,0.477823,18.7329,8002.0,714.582
83,549.172,0.00479166,549.172,8.64746,0.846866,6.39469,3617.4,11340,0.0188643,0.402377,0.476311,18.7681,8002.0,711.122
84,545.991,0.00476851,545.991,8.63662,0.846858,6.37815,4328.52,13571.5,0.018162,0.48143,0.475569,18.8841,8002.0,708.062
85,543.638,0.00475694,543.638,8.61471,0.846854,6.37593,5036.58,15794,0.018664,0.560133,0.473879,18.9215,8002.0,705.451
86,539.957,0.00473379,539.957,8.61102,0.846845,6.35135,5742.03,18009,0.0193385,0.638582,0.473942,19.0223,8002.0,701.91
87,537.489,0.00474536,537.489,8.59991,0.846849,6.38466,6443.94,20213.3,0.0184363,0.716608,0.472502,19.0098,8002.0,699.255
88,534.802,0.00472222,534.802,8.60363,0.846841,6.37205,7143.2,22409.8,0.0181357,0.794327,0.472098,19.0349,8002.0,696.664
89,532.545,0.00474541,532.545,8.65464,0.846849,6.42258,7839.86,24598.7,0.018336,0.871749,0.470846,18.9842,8002.0,693.985
90,529.653,0.00473383,529.653,8.60733,0.846845,6.40274,8533.84,26779.7,0.0186365,0.948867,0.470795,19.0305,8002.0,691.201
91,526.563,0.00471068,526.563,8.60363,0.846837,6.39062,9225.05,28952.5,0.0180358,1.02566,0.468786,19.0899,8002.0,688.282
92,524.299,0.00473385,524.299,8.61102,0.846845,6.40746,9913.33,31116.4,0.0187365,1.10212,0.470434,19.0136,8002.0,685.447
93,518.79,0.00474537,518.79,8.59991,0.846849,6.4265,10598.8,33271.7,0.0192385,1.17825,0.466709,18.9845,8002.0,679.511
94,513.456,0.00478009,513.456,8.63662,0.846862,6.46426,11278.3,35409.5,0.0224523,1.25372,0.465262,18.8803,8002.0,674.005
95,510.36,0.00479167,510.36,8.65464,0.846866,6.47174,11952.3,37530.2,0.0226537,1.32854,0.46575,18.7513,8002.0,670.65
96,507.046,0.00482639,507.046,8.65821,0.846878,6.51498,12622.9,39641,0.024498,1.40298,0.462907,18.6665,8002.0,667.353
97,504.613,0.00481481,504.613,8.65464,0.846874,6.4856,13290.3,41741.8,0.0245863,1.47704,0.464128,18.703,8002.0,665.236
98,501.527,0.00486111,501.527,8.64386,0.84689,6.51666,13955.5,43835,0.0222808,1.55081,0.4629,18.5582,8002.0,661.543
99,499.478,0.00486111,499.478,8.66178,0.84689,6.52471,14617.1,45918.1,0.024951,1.6242,0.4641,18.5335,8002.0,659.752
100,496.399,0.00490741,496.399,8.67596,0.846906,6.57756,15276.8,47994.6,0.0226467,1.69733,0.461732,18.3427,8002.0,656.287
101,494.357,0.00489583,494.357,8.68299,0.846902,6.52713,15933.1,50061.8,0.0247125,1.77009,0.46341,18.5004,8002.0,654.65
102,490.655,0.00494213,490.655,8.65821,0.846918,6.58072,16587.8,52122.8,0.0221078,1.84262,0.462278,18.1899,8002.0,650.389
103,489.62,0.00493055,489.62,8.67948,0.846914,6.57411,17238.2,54172.4,0.0273875,1.91472,0.463171,18.2974,8002.0,649.665
104,486.954,0.00491898,486.954,8.64746,0.84691,6.54424,17887.8,56218,0.024281,1.98668,0.464845,18.2835,8002.0,647.133
105,482.635,0.00503472,482.635,8.70044,0.846948,6.65755,18534.9,58255.3,0.024281,2.05834,0.462405,17.88,8002.0,642.135
106,481.828,0.00496527,481.828,8.66888,0.846925,6.58045,19177.1,60280.3,0.0287895,2.12948,0.462515,18.1939,8002.0,641.705
107,478.946,0.00496527,478.946,8.65464,0.846925,6.56988,19818.8,62302.4,0.025082,2.20051,0.464438,18.1537,8002.0,638.995
108,475.252,0.00505787,475.252,8.67243,0.846955,6.64409,20457.8,64315.3,0.025684,2.27122,0.462269,17.8616,8002.0,634.97
109,474.002,0.00498842,474.002,8.6865,0.846933,6.59799,21092.8,66317.9,0.0293915,2.34151,0.463997,18.0215,8002.0,634.209
110,469.466,0.00506944,469.466,8.70044,0.846959,6.6045,21727,68316.1,0.0268858,2.41167,0.466726,17.7893,8002.0,627.705
111,468.856,0.00504629,468.856,8.7211,0.846952,6.60969,22354.7,70297.2,0.0318305,2.48117,0.465397,17.8628,8002.0,628.12
112,464.338,0.00508101,464.338,8.73809,0.846963,6.63145,22982.8,72279,0.0265198,2.55066,0.465037,17.7332,8002.0,626.135
113,462.91,0.00515046,462.91,8.72451,0.846984,6.68886,23608.9,74255,0.026019,2.61981,0.464367,17.5645,8002.0,621.158
114,462.484,0.00506944,462.484,8.69697,0.846959,6.62436,24230.1,76218.2,0.0311295,2.68855,0.466152,17.7815,8002.0,621.463
115,460.029,0.00505786,460.029,8.69,0.846955,6.61801,24851.5,78180.5,0.0268203,2.75726,0.465982,17.7825,8002.0,619.518
116,456.133,0.00513889,456.133,8.72451,0.846981,6.66825,25471.1,80136,0.0277225,2.82574,0.464439,17.5728,8002.0,615.535
117,455.091,0.00506944,455.091,8.73809,0.846959,6.61444,26086.6,82081.2,0.0313297,2.89379,0.466091,17.742,8002.0,614.882
118,452.618,0.00506944,452.618,8.73132,0.846959,6.62236,26701.5,84022.4,0.0300245,2.96173,0.466944,17.7737,8002.0,612.897
119,450.342,0.00506944,450.342,8.67596,0.846959,6.61345,27314.4,85955.9,0.028823,3.02941,0.466452,17.8367,8002.0,610.913
120,446.87,0.00513889,446.87,8.73471,0.846981,6.64798,27925.3,87882.6,0.0300245,3.09685,0.467375,17.5572,8002.0,607.282
121,446.033,0.00505786,446.033,8.69349,0.846955,6.58801,28532.6,89800.7,0.0348345,3.16389,0.467832,17.8141,8002.0,606.966
122,441.928,0.00503472,441.928,8.69,0.846948,6.5685,29139.5,91714.8,0.0311273,3.23087,0.467371,17.8403,8002.0,603.289
123,410.244,0.00489583,410.244,8.64024,0.846902,6.50168,29742.8,93616.9,0.0312108,3.35967,0.467886,18.4269,8002.0,577.919
124,406.94,0.00516204,406.94,8.73471,0.846988,6.68162,30320.7,95415.4,0.0628535,3.42284,0.467701,17.4555,8002.0,575.48
125,410.851,0.0049537,410.851,8.65105,0.846921,6.55247,30896.2,97211.2,0.0712853,3.48584,0.465978,18.1314,8002.0,580.879
126,411.036,0.0049537,411.036,8.68299,0.846921,6.54493,31477.1,99020.7,0.0549513,3.54931,0.467177,18.1799,8002.0,581.026
127,403.867,0.00520833,403.867,8.74483,0.847002,6.6943,32058.1,100830,0.0533478,3.6128,0.467469,17.2853,8002.0,575.951
128,408.58,0.00499999,408.58,8.66534,0.846936,6.55615,32634.1,102630,0.060262,3.67572,0.467603,18.0599,8002.0,578.87
129,407.554,0.00497684,407.554,8.7039,0.846929,6.54301,33213,104434,0.0509433,3.73896,0.467631,18.1196,8002.0,578.039
130,405.315,0.00503472,405.315,8.68299,0.846948,6.56072,33791,106236,0.0497405,3.8021,0.470181,17.9038,8002.0,575.294
131,404.065,0.0049537,404.065,8.69,0.846921,6.51775,34366.3,108030,0.056054,3.86496,0.468612,18.1637,8002.0,574.673
132,402.616,0.0049537,402.616,8.7039,0.846921,6.51744,34941,109820,0.050041,3.92771,0.468945,18.1718,8002.0,573
133,395.232,0.00511574,395.232,8.71081,0.846973,6.60336,35514,111605,0.0499407,3.99027,0.469657,17.6287,8002.0,567.464
134,399.746,0.00496527,399.746,8.64024,0.846925,6.51399,36081.4,113378,0.058928,4.05216,0.469619,18.1295,8002.0,570.476
135,398.288,0.00496527,398.288,8.67596,0.846925,6.54525,36651.9,115156,0.05011,4.11442,0.468471,18.1295,8002.0,568.801
136,389.493,0.00515046,389.493,8.7211,0.846984,6.60478,37220.7,116927,0.0493078,4.17648,0.471717,17.4946,8002.0,562.725
137,394.817,0.00497685,394.817,8.69697,0.846929,6.54021,37783.4,118687,0.058127,4.2378,0.467924,18.0794,8002.0,565.794
138,393.159,0.00496527,393.159,8.67948,0.846925,6.52325,38349.2,120451,0.0503103,4.29951,0.46932,18.1456,8002.0,563.836
139,391.147,0.00527778,391.147,8.79116,0.847022,6.74377,38913.1,122208,0.05001,4.36099,0.466948,17.0508,8002.0,561.433
140,394.217,0.00509259,394.217,8.71768,0.846966,6.62918,39474.5,123965,0.0701205,4.42239,0.468463,17.7322,8002.0,564.003
141,391.956,0.00502314,391.956,8.71768,0.846944,6.58952,40038.5,125725,0.048676,4.48395,0.466355,17.9131,8002.0,562.128
142,382.103,0.00521991,382.103,8.73471,0.847005,6.66219,40600.6,127479,0.0483755,4.54528,0.470549,17.2241,8002.0,556.212
143,385.192,0.00510417,385.192,8.7211,0.84697,6.61057,41156.8,129224,0.05539,4.60585,0.468673,17.6451,8002.0,556.335
144,385.604,0.00501157,385.604,8.70044,0.84694,6.5621,41713.2,130964,0.05549,4.6665,0.468171,17.9464,8002.0,556.888
145,385.58,0.00501157,385.58,8.69,0.84694,6.52517,42270.1,132701,0.049377,4.72717,0.470006,18.0262,8002.0,557.117
146,349.597,0.00487269,349.597,8.66888,0.846894,6.47801,42827.2,134437,0.0503795,4.78784,0.467776,18.5224,8002.0,501.435
147,389.29,0.00505786,389.29,8.70736,0.846955,6.61046,43328.6,135984,0.129244,4.84285,0.466481,17.7667,8002.0,562.234
148,385.997,0.00503472,385.997,8.69,0.846948,6.55556,43890.8,137730,0.0525837,4.90404,0.469516,17.9197,8002.0,558.632
149,370.391,0.00513889,370.391,8.74819,0.846981,6.64013,44449.5,139464,0.0530855,4.96481,0.466907,17.5728,8002.0,544.915
150,574.521,0.00488426,574.521,8.67243,0.846898,6.38491,0.0,0.0,0.0,0.0,0.481261,18.5373,8003.0,735.12
151,565.668,0.00484953,565.668,8.64386,0.846886,6.38853,735.12,2301.35,0.0213723,0.0818328,0.479757,18.6038,8003.0,726.687
152,561.459,0.00481481,561.459,8.633,0.846874,6.38528,1461.81,4575.11,0.0188653,0.162694,0.478857,18.7127,8003.0,722.733
153,558.815,0.00480324,558.815,8.65464,0.84687,6.40454,2184.54,6837.2,0.018565,0.243097,0.477387,18.716,8003.0,720.207
154,554.553,0.00478009,554.553,8.63662,0.846862,6.39217,2904.75,9092.26,0.0196463,0.323219,0.47567,18.8399,8003.0,716.05
155,551.454,0.00475694,551.454,8.60363,0.846854,6.37134,3620.8,11334.9,0.0180428,0.402855,0.474508,18.9566,8003.0,713.084
156,548.726,0.00473379,548.726,8.62936,0.846845,6.36322,4333.88,13568.7,0.017641,0.482154,0.475238,18.9899,8003.0,710.058
157,546.92,0.00475694,546.92,8.61102,0.846854,6.37439,5043.94,15793.8,0.0177412,0.561129,0.474923,18.9818,8003.0,708.508
158,543.872,0.00473379,543.872,8.61102,0.846845,6.36662,5752.45,18014.8,0.019143,0.639924,0.474497,19.0491,8003.0,705.573
159,541.405,0.00472222,541.405,8.62936,0.846841,6.37525,6458.02,20227,0.01764,0.718363,0.472298,19.0957,8003.0,703.213
160,538.935,0.00469907,538.935,8.63662,0.846832,6.36345,7161.23,22432.5,0.0167375,0.796531,0.471067,19.164,8003.0,700.892
161,536.882,0.00469911,536.882,8.62205,0.846833,6.37292,7862.12,24631.1,0.0173382,0.874433,0.471257,19.1553,8003.0,698.67
162,534.61,0.00468754,534.61,8.60733,0.846828,6.35615,8560.79,26823.1,0.01774,0.952079,0.471647,19.2025,8003.0,696.346
163,532.343,0.00469911,532.343,8.59246,0.846832,6.38431,9257.14,29008.2,0.0173382,1.02946,0.470244,19.1808,8003.0,693.932
164,529.873,0.00468756,529.873,8.59246,0.846828,6.37191,9951.07,31185.9,0.0174385,1.10656,0.469631,19.211,8003.0,691.478
165,525.161,0.0046875,525.161,8.56605,0.846828,6.36788,10642.6,33356.2,0.0188428,1.18338,0.467715,19.1941,8003.0,686.404
166,520.054,0.0047338,520.054,8.60733,0.846845,6.44668,11329,35512.4,0.020762,1.25962,0.465223,18.9984,8003.0,681.126
167,517.153,0.00474537,517.153,8.61471,0.846849,6.43697,12010.1,37652.3,0.0210622,1.33524,0.464402,18.969,8003.0,678.232
168,514.666,0.00478009,514.666,8.61471,0.846862,6.46807,12688.3,39784,0.0207882,1.41053,0.463486,18.8818,8003.0,675.415
169,512.026,0.00478009,512.026,8.61839,0.846862,6.46388,13363.7,41907.1,0.0215832,1.4855,0.463308,18.9069,8003.0,673.392
170,509.35,0.00482639,509.35,8.64746,0.846878,6.519,14037.1,44023,0.0197785,1.5602,0.462072,18.6679,8003.0,669.907
171,506.891,0.00478009,506.891,8.62936,0.846862,6.44738,14707,46129.4,0.0229973,1.63453,0.463564,18.8148,8003.0,667.987
172,504.633,0.00484954,504.633,8.64024,0.846886,6.51955,15375,48228.8,0.0205903,1.7086,0.461988,18.5708,8003.0,665.183
173,502.18,0.00483796,502.18,8.61839,0.846882,6.50492,16040.2,50320.9,0.021786,1.78237,0.463994,18.5821,8003.0,663.179
174,499.295,0.00489583,499.295,8.68299,0.846902,6.51939,16703.4,52405.6,0.0208835,1.85587,0.462232,18.4364,8003.0,659.638
175,497.653,0.00487268,497.653,8.66888,0.846894,6.52728,17363,54481.3,0.0240903,1.92901,0.46304,18.4828,8003.0,658.371
176,494.983,0.00488425,494.983,8.67243,0.846898,6.5026,18021.4,56551.2,0.0217848,2.00195,0.464562,18.4719,8003.0,655.855
177,491.921,0.00496528,491.921,8.65464,0.846925,6.58472,18677.2,58613.2,0.022487,2.0746,0.462118,18.1228,8003.0,651.969
178,490.261,0.00493055,490.261,8.6865,0.846914,6.57876,19329.2,60665.8,0.0240903,2.14685,0.461685,18.242,8003.0,650.977
179,487.791,0.00494212,487.791,8.69,0.846918,6.56592,19980.2,62713.5,0.0222855,2.21893,0.463284,18.2237,8003.0,648.729
180,485.142,0.00503472,485.142,8.72451,0.846948,6.65136,20628.9,64753.6,0.0234895,2.29074,0.462236,17.8893,8003.0,645.093